Folder: fpraktikum_mit_alex/FT-IR/Gruppe2A

File: aluminium_spacer.dat
#Datum: 21.01.2016 16:19:44
#Quelle: aluminium_spacer

#Daten:
cm-1;%T
450;80,7607321251265
462;83,6031302670081
474;86,9443673620688
486;89,2809120295119
498;90,4302973870594
510;90,7842930660652
522;89,7969653248236
534;88,5532777007795
546;86,4984121864277
558;84,6185411395478
570;83,0783997383521
582;82,2038381287002
594;82,1368946211172
606;82,9732086133395
618;84,5522199119252
630;86,4282277261491
642;88,3170006971798
654;89,709547104216
666;90,5032213115105
678;90,2999110394354
690;89,3713793153198
702;87,7406718863434
714;85,7854632105704
726;83,8572070288426
738;82,4115597855183
750;81,6723799694734
762;81,7577761569978
774;82,6579825131838
786;84,1027122614944
798;85,8473605177292
810;87,4732109795835
822;88,7604642273451
834;89,4473922704446
846;89,3814014308772
858;88,6111489245632
870;87,2523937494453
882;85,6193097969748
894;84,0052257734658
906;82,7373383570512
918;82,0713483979652
930;82,1331982624386
942;82,8265500548908
954;83,9438556251776
966;85,327955341973
978;86,607681451704
990;87,572701219994
1002;88,0280876641324
1014;87,7591332099908
1026;87,2193493939716
1038;86,3337709516922
1050;85,120967395088
1062;83,8959971345395
1074;82,819929431534
1086;82,4403570160336
1098;82,4116497426443
1110;82,8928460197954
1122;83,7650664010343
1134;84,8189906078022
1146;85,7493967681954
1158;86,6873452495608
1170;87,1296934869034
1182;86,9710580234606
1194;86,8315848168805
1206;86,1291638107653
1218;85,1989503741556
1230;84,2599541817526
1242;83,446175825937
1254;82,9544387714192
1266;82,8288874338624
1278;83,1338714500418
1290;83,6828559167891
1302;84,3850429234313
1314;85,1308197134594
1326;85,7495016720964
1338;86,1960340665301
1350;86,2909311748655
1362;86,1735956546756
1374;85,6970879635924
1386;84,6924234255444
1398;84,5520652434761
1410;83,9378539186432
1422;83,5230001703245
1434;83,3081895808756
1446;83,3280377245139
1458;83,5229616973089
1470;83,8619858490105
1482;84,4969267303573
1494;85,0385467350419
1506;85,47576326574
1518;85,6997098478691
1530;85,6858469194956
1542;85,3168772290959
1554;85,2245122783694
1566;84,7193949709458
1578;83,9248401905373
1590;83,7999198348277
1602;83,7246750291085
1614;83,5770776918468
1626;83,6044425616506
1638;83,8018596576294
1650;84,1735290057221
1662;84,494160241901
1674;84,8738845700963
1686;85,1384582471557
1698;85,3843673108621
1710;85,421041910652
1722;85,2693593967611
1734;85,0670274240873
1746;84,7965110387481
1758;84,4961916979517
1770;84,1521489154445
1782;83,875682890538
1794;83,7141055227401
1806;83,6987202727031
1818;83,851916643044
1830;84,1351037118549
1842;84,542242912404
1854;84,9042246871914
1866;85,2591494528932
1878;85,4756746074779
1890;85,5400523760308
1902;85,414853535072
1914;85,1318461012118
1926;84,7510144980118
1938;84,3384096331628
1950;83,9671732390034
1962;83,7286719935742
1974;83,633895597017
1986;83,7140760096245
1998;83,9373459055254
2010;84,2794713142541
2022;84,6721893064651
2034;85,0693107861532
2046;85,3512272136962
2058;85,4788223176323
2070;85,4423593758369
2082;85,2274183832976
2094;84,8902349420416
2106;84,484726158587
2118;84,1142902357876
2130;83,8126463680268
2142;83,6741979471036
2154;83,6952768488203
2166;83,8716219598025
2178;84,1669218818798
2190;84,5439077741552
2202;84,9025961004764
2214;85,1944917075964
2226;85,3624791239394
2238;85,3812225129682
2250;85,2224236839046
2262;84,9466064136094
2274;84,5960563925218
2286;84,2418083821036
2298;83,8897246882695
2310;83,6327207584394
2322;83,4743369518006
2334;83,6259118205538
2346;83,7925494545595
2358;84,1396434734646
2370;84,4851338224359
2382;85,0075477378128
2394;85,1818743198372
2406;85,2280017731468
2418;85,1404827451664
2430;84,929255465002
2442;84,6514050393568
2454;84,3610903021328
2466;84,1121294760622
2478;83,9721411425676
2490;83,9462087999189
2502;84,0267380803756
2514;84,1865768797914
2526;84,4081038604337
2538;84,6486991347961
2550;84,8613529089118
2562;85,017411036607
2574;85,0659042084566
2586;85,0209364517732
2598;84,879500954415
2610;84,6771425532425
2622;84,4460034630576
2634;84,2440488712178
2646;84,1129347637465
2658;84,0558458470002
2670;84,0719624715949
2682;84,1556401966659
2694;84,293243342252
2706;84,4602074391225
2718;84,6180782707956
2730;84,7467306821523
2742;84,8104523417806
2754;84,8087708749186
2766;84,7383643797048
2778;84,6320173280126
2790;84,4642786976226
2802;84,3467589004128
2814;84,2352287994993
2826;84,1276664434888
2838;83,9231155851512
2850;83,2131476385584
2862;83,9178440111584
2874;84,0139170277124
2886;84,1821610393904
2898;84,1404888230469
2910;83,8476661945463
2922;83,4903421115182
2934;84,1905375134443
2946;84,2781719945318
2958;84,2890738798926
2970;84,3654985132803
2982;84,3137318766111
2994;84,2322929925699
3006;84,2150407962485
3018;84,1294493437769
3030;84,1656568903198
3042;84,1023908485466
3054;84,2366632947487
3066;84,2901679536334
3078;84,2970324818496
3090;84,444644896121
3102;84,5444218383604
3114;84,4994933251287
3126;84,5627797542335
3138;84,4444956197028
3150;84,3801338882964
3162;84,347343955691
3174;84,2593683975706
3186;84,1927420987151
3198;84,1332872859279
3210;84,1068601759014
3222;84,1208459543986
3234;84,0494503849762
3246;84,1781097895553
3258;84,3201383419361
3270;84,2868597845026
3282;84,4629413528536
3294;84,3595634456398
3306;84,1968499605274
3318;84,3499832325747
3330;84,2486530076773
3342;84,0867864190314
3354;84,0154572271655
3366;83,8565969734136
3378;83,85429731348
3390;83,7639875256089
3402;83,7207820312559
3414;83,9012056881433
3426;83,9826147609914
3438;83,9569281265246
3450;84,1295972922926
3462;84,1369231273961
3474;84,158522920835
3486;84,1239722276328
3498;84,0740482540886
3510;84,0778984699443
3522;83,9488309498659
3534;83,8960795256992
3546;83,7656139863971
3558;83,8515836172999
3570;83,8801845540471
3582;83,9662475956658
3594;84,1384960562862
3606;84,2389132054451
3618;84,3440805366239
3630;84,50403652028
3642;84,5259454914055
3654;84,4937254091051
3666;84,4248635717417
3678;84,2854679136656
3690;84,1287251256924
3702;84,0836005223582
3714;83,9948177207804
3726;83,9795737675696
3738;83,9324780350843
3750;84,0826779385886
3762;84,1730390137297
3774;84,3087196303984
3786;84,4054603044047
3798;84,4540669579476
3810;84,5173728175878
3822;84,5076282313047
3834;84,4232154284396
3846;84,3435336921631
3858;84,2276227489028
3870;84,1045566196024
3882;83,9928544482164
3894;83,9774253468533
3906;83,9875037362784
3918;84,0508080262996
3930;84,1404349655535
3942;84,240694701014
3954;84,3158844690988
3966;84,3981039040786
3978;84,4175333554895
3990;84,4613792398697
4000;84,4135751532995

File: polyethylen.dat
#Datum: 21.01.2016 16:19:44
#Quelle: polyethylen

#Daten:
cm-1;%T
630;90,0484390258789
645;92,7074203491211
660;92,3275680541992
675;91,9477081298828
690;91,5678634643555
705;86,2499084472656
720;48,6443672180176
735;78,6528244018555
750;96,5059585571289
765;96,5059585571289
780;98,0253753662109
795;97,6455230712891
810;98,7850799560547
825;96,8858184814453
840;97,6455230712891
855;98,4052276611328
870;97,2656631469726
885;96,8858184814453
900;96,8858184814453
915;96,5059585571289
930;97,2656631469726
945;98,4052276611328
960;97,6455230712891
975;98,0253753662109
990;97,2656631469726
1005;98,4052276611328
1020;98,4052276611328
1035;98,0253753662109
1050;97,2656631469726
1065;97,6455230712891
1080;97,6455230712891
1095;98,0253753662109
1110;97,6455230712891
1125;96,8858184814453
1140;96,5059585571289
1155;96,5059585571289
1170;96,5059585571289
1185;96,126106262207
1200;95,7462463378906
1215;95,3663940429688
1230;95,3663940429688
1245;98,0253753662109
1260;99,544792175293
1275;99,1649322509766
1290;98,7850799560547
1305;98,4052276611328
1320;98,7850799560547
1335;99,544792175293
1350;98,4052276611328
1365;97,2656631469726
1380;98,7850799560547
1395;99,9246444702148
1410;99,9246444702148
1425;97,6455230712891
1440;92,3275680541992
1455;79,0326843261719
1470;51,6831970214844
1485;98,4052276611328
1500;101,823913574219
1515;102,963478088379
1530;103,343330383301
1545;103,343330383301
1560;103,723182678223
1575;102,963478088379
1590;100,684349060059
1605;99,9246444702148
1620;102,583618164062
1635;102,963478088379
1650;102,963478088379
1665;102,963478088379
1680;102,963478088379
1695;103,343330383301
1710;102,963478088379
1725;103,343330383301
1740;104,103034973145
1755;104,482887268066
1770;103,723182678223
1785;103,343330383301
1800;103,343330383301
1815;103,343330383301
1830;103,723182678223
1845;103,723182678223
1860;103,723182678223
1875;104,103034973145
1890;103,723182678223
1905;103,723182678223
1920;104,103034973145
1935;104,103034973145
1950;104,482887268066
1965;104,482887268066
1980;104,482887268066
1995;104,482887268066
2010;104,103034973145
2025;104,103034973145
2040;104,482887268066
2055;104,482887268066
2070;104,482887268066
2085;104,482887268066
2100;104,482887268066
2115;104,482887268066
2130;104,482887268066
2145;104,482887268066
2160;104,103034973145
2175;104,103034973145
2190;104,103034973145
2205;104,103034973145
2220;104,103034973145
2235;104,103034973145
2250;104,103034973145
2265;103,723182678223
2280;103,723182678223
2295;103,723182678223
2310;103,723182678223
2325;103,343330383301
2340;103,343330383301
2355;103,723182678223
2370;104,103034973145
2385;104,103034973145
2400;104,103034973145
2415;104,103034973145
2430;103,723182678223
2445;103,723182678223
2460;103,723182678223
2475;103,723182678223
2490;103,343330383301
2505;103,343330383301
2520;102,963478088379
2535;102,963478088379
2550;102,203773498535
2565;101,823913574219
2580;101,823913574219
2595;101,06420135498
2610;100,684349060059
2625;99,544792175293
2640;99,1649322509766
2655;99,1649322509766
2670;99,1649322509766
2685;99,544792175293
2700;99,544792175293
2715;98,7850799560547
2730;98,4052276611328
2745;98,0253753662109
2760;97,2656631469726
2775;95,7462463378906
2790;93,4671249389648
2805;90,0484390258789
2820;84,3506393432617
2835;64,218376159668
2850;16,3567867279053
2865;71,0557479858398
2880;61,9392547607422
2895;40,2875785827637
2910;15,9769325256348
2925;23,1941566467285
2940;76,7535552978516
2955;96,126106262207
2970;101,06420135498
2985;104,103034973145
3000;104,103034973145
3015;104,482887268066
3030;104,103034973145
3045;104,103034973145
3060;103,723182678223
3075;103,723182678223
3090;103,723182678223
3105;104,103034973145
3120;104,103034973145
3135;104,103034973145
3150;104,103034973145
3165;103,723182678223
3180;103,343330383301
3195;102,963478088379
3210;102,963478088379
3225;102,963478088379
3240;103,343330383301
3255;103,343330383301
3270;103,343330383301
3285;103,343330383301
3300;103,343330383301
3315;102,963478088379
3330;102,963478088379
3345;102,963478088379
3360;102,583618164062
3375;102,583618164062
3390;102,583618164062
3405;102,963478088379
3420;102,583618164062
3435;102,583618164062
3450;102,583618164062
3465;102,583618164062
3480;102,583618164062
3495;102,583618164062
3510;102,583618164062
3525;102,583618164062
3540;102,963478088379
3555;102,963478088379
3570;102,963478088379
3585;102,963478088379
3600;102,963478088379
3615;102,583618164062
3630;102,963478088379
3645;102,203773498535
3660;102,963478088379
3675;103,343330383301
3690;102,963478088379
3705;102,963478088379
3720;102,583618164062
3735;102,583618164062
3750;102,583618164062
3765;102,203773498535
3780;102,583618164062
3795;102,583618164062
3810;102,583618164062
3825;102,583618164062
3840;102,583618164062
3855;102,583618164062
3870;102,583618164062
3885;102,583618164062
3900;102,963478088379
3915;102,963478088379
3930;102,963478088379
3945;102,963478088379
3960;103,343330383301
3975;103,343330383301
3990;103,343330383301
4000;103,723182678223

File: tmp3.dat
#Datum: 21.01.2016 16:19:44
#Quelle: aluminium_spacer

#Daten:
#cm-1 %T
450 80.7607
462 83.6031
474 86.9444
486 89.2809
498 90.4303
510 90.7843
522 89.797
534 88.5533
546 86.4984
558 84.6185
570 83.0784
582 82.2038
594 82.1369
606 82.9732
618 84.5522
630 86.4282
642 88.317
654 89.7095
666 90.5032
678 90.2999
690 89.3714
702 87.7407
714 85.7855
726 83.8572
738 82.4116
750 81.6724
762 81.7578
774 82.658
786 84.1027
798 85.8474
810 87.4732
822 88.7605
834 89.4474
846 89.3814
858 88.6111
870 87.2524
882 85.6193
894 84.0052
906 82.7373
918 82.0713
930 82.1332
942 82.8266
954 83.9439
966 85.328
978 86.6077
990 87.5727
1002 88.0281
1014 87.7591
1026 87.2193
1038 86.3338
1050 85.121
1062 83.896
1074 82.8199
1086 82.4404
1098 82.4116
1110 82.8928
1122 83.7651
1134 84.819
1146 85.7494
1158 86.6873
1170 87.1297
1182 86.9711
1194 86.8316
1206 86.1292
1218 85.199
1230 84.26
1242 83.4462
1254 82.9544
1266 82.8289
1278 83.1339
1290 83.6829
1302 84.385
1314 85.1308
1326 85.7495
1338 86.196
1350 86.2909
1362 86.1736
1374 85.6971
1386 84.6924
1398 84.5521
1410 83.9379
1422 83.523
1434 83.3082
1446 83.328
1458 83.523
1470 83.862
1482 84.4969
1494 85.0385
1506 85.4758
1518 85.6997
1530 85.6858
1542 85.3169
1554 85.2245
1566 84.7194
1578 83.9248
1590 83.7999
1602 83.7247
1614 83.5771
1626 83.6044
1638 83.8019
1650 84.1735
1662 84.4942
1674 84.8739
1686 85.1385
1698 85.3844
1710 85.421
1722 85.2694
1734 85.067
1746 84.7965
1758 84.4962
1770 84.1521
1782 83.8757
1794 83.7141
1806 83.6987
1818 83.8519
1830 84.1351
1842 84.5422
1854 84.9042
1866 85.2591
1878 85.4757
1890 85.5401
1902 85.4149
1914 85.1318
1926 84.751
1938 84.3384
1950 83.9672
1962 83.7287
1974 83.6339
1986 83.7141
1998 83.9373
2010 84.2795
2022 84.6722
2034 85.0693
2046 85.3512
2058 85.4788
2070 85.4424
2082 85.2274
2094 84.8902
2106 84.4847
2118 84.1143
2130 83.8126
2142 83.6742
2154 83.6953
2166 83.8716
2178 84.1669
2190 84.5439
2202 84.9026
2214 85.1945
2226 85.3625
2238 85.3812
2250 85.2224
2262 84.9466
2274 84.5961
2286 84.2418
2298 83.8897
2310 83.6327
2322 83.4743
2334 83.6259
2346 83.7925
2358 84.1396
2370 84.4851
2382 85.0075
2394 85.1819
2406 85.228
2418 85.1405
2430 84.9293
2442 84.6514
2454 84.3611
2466 84.1121
2478 83.9721
2490 83.9462
2502 84.0267
2514 84.1866
2526 84.4081
2538 84.6487
2550 84.8614
2562 85.0174
2574 85.0659
2586 85.0209
2598 84.8795
2610 84.6771
2622 84.446
2634 84.244
2646 84.1129
2658 84.0558
2670 84.072
2682 84.1556
2694 84.2932
2706 84.4602
2718 84.6181
2730 84.7467
2742 84.8105
2754 84.8088
2766 84.7384
2778 84.632
2790 84.4643
2802 84.3468
2814 84.2352
2826 84.1277
2838 83.9231
2850 83.2131
2862 83.9178
2874 84.0139
2886 84.1822
2898 84.1405
2910 83.8477
2922 83.4903
2934 84.1905
2946 84.2782
2958 84.2891
2970 84.3655
2982 84.3137
2994 84.2323
3006 84.215
3018 84.1294
3030 84.1657
3042 84.1024
3054 84.2367
3066 84.2902
3078 84.297
3090 84.4446
3102 84.5444
3114 84.4995
3126 84.5628
3138 84.4445
3150 84.3801
3162 84.3473
3174 84.2594
3186 84.1927
3198 84.1333
3210 84.1069
3222 84.1208
3234 84.0495
3246 84.1781
3258 84.3201
3270 84.2869
3282 84.4629
3294 84.3596
3306 84.1968
3318 84.35
3330 84.2487
3342 84.0868
3354 84.0155
3366 83.8566
3378 83.8543
3390 83.764
3402 83.7208
3414 83.9012
3426 83.9826
3438 83.9569
3450 84.1296
3462 84.1369
3474 84.1585
3486 84.124
3498 84.074
3510 84.0779
3522 83.9488
3534 83.8961
3546 83.7656
3558 83.8516
3570 83.8802
3582 83.9662
3594 84.1385
3606 84.2389
3618 84.3441
3630 84.504
3642 84.5259
3654 84.4937
3666 84.4249
3678 84.2855
3690 84.1287
3702 84.0836
3714 83.9948
3726 83.9796
3738 83.9325
3750 84.0827
3762 84.173
3774 84.3087
3786 84.4055
3798 84.4541
3810 84.5174
3822 84.5076
3834 84.4232
3846 84.3435
3858 84.2276
3870 84.1046
3882 83.9929
3894 83.9774
3906 83.9875
3918 84.0508
3930 84.1404
3942 84.2407
3954 84.3159
3966 84.3981
3978 84.4175
3990 84.4614
4000 84.4136